Folder: gamryprotocoltools/examples (part 3)

File: Activacion_Dsc_2x_#1_#1.DTA
EXPLAIN
TAG	CHRONOP
TITLE	LABEL	Chronopotentiometry Scan	Test Identifier
DATE	LABEL	3/11/2025	Date
TIME	LABEL	15:32:23	Time
NOTES	NOTES	1	Notes...
	Curva de activacion, creada a traves de la iteracion de cronopotenciometrias de 2 pasos. Rama descendent
PSTAT	PSTAT	REF3000-46189	Potentiostat
IPRESTEP	QUANT	1,80000E+001	A Real Number
TPRESTEP	QUANT	0,00000E+000	Pre-step Delay Time (s)
ISTEP1	QUANT	1,80000E+001	A Real Number
TSTEP1	QUANT	1,25000E+002	Step 1 Time (s)
ISTEP2	QUANT	1,70000E+001	A Real Number
TSTEP2	QUANT	1,25000E+002	Step 2 Time (s)
SAMPLETIME	QUANT	1,00000E+000	Sample Period (s)
DECIMATE	TOGGLE	F	Decimate
VLIMITLOWER	QUANT	-4,00000E+000	Lower Limit V (V)
VLIMITUPPER	QUANT	4,00000E+000	Upper Limit V (V)
EQDELAY	QUANT	0,00000E+000	Equil. Time (s)
SAMPLINGMODE	SELECTOR	1	Sampling Mode
AREA	QUANT	2,50000E+001	Sample Area (cm^2)
ELECTRODETYPE	SELECTOR	0	Electrode Type
STRIPPING	TOGGLE	F	Used for Stripping
SEQUENCER	TOGGLE	TRUE	Run as Sequence
PSTATMODEL	IQUANT	6	Pstat Model
PSTATSECTION	LABEL	REF30K-46189	Pstat Section
PSTATSERIALNO	LABEL	46189	Pstat Serial Number
CTRLMODE	IQUANT	0	Control Mode
ELECTROMETER	IQUANT	0	RE=0 or CS=1
IESTAB	IQUANT	0	I/E Stability
CASPEED	IQUANT	4	Control Amp Speed
CONVENTION	IQUANT	1	Current Convention
ICHRANGE	IQUANT	2	Ich Range
ICHRANGEMODE	TOGGLE	T	Ich Auto Range
ICHOFFSETENABLE	TOGGLE	F	Ich Offset Enable
ICHOFFSET	QUANT	0	Ich Offset (V)
ICHFILTER	IQUANT	3	Ich Filter
VCHRANGE	IQUANT	3	Vch Range
VCHRANGEMODE	TOGGLE	T	Vch Auto Range
VCHOFFSETENABLE	TOGGLE	F	Vch Offset Enable
VCHOFFSET	QUANT	0	Vch Offset (V)
VCHFILTER	IQUANT	3	Vch Filter
ACHRANGE	IQUANT	2	Ach Range
ACHOFFSETENABLE	TOGGLE	F	Ach Offset Enable
ACHOFFSET	QUANT	0	Ach Offset (V)
ACHFILTER	IQUANT	1	Ach Filter
IERANGELOWERLIMIT	IQUANT	13	I/E Range Lower Limit
IERANGEMODE	TOGGLE	F	I/E AutoRange
IERANGE	IQUANT	13	I/E Range
POSFEEDENABLE	TOGGLE	F	Positive Feedback IR Comp
POSFEEDRESISTANCE	QUANT	0	Positive Feedback Resistance (ohm)
ACHSELECT	IQUANT	4	Ach Select
SENSECABLEID	IQUANT	14	Sense Cable ID
PWRCABLEID	IQUANT	8	Power Cable ID
DCCALDATE	LABEL	10/1/2025	DC Calibration Date
ACCALDATE	LABEL	10/1/2025	AC Calibration Date
THERMOSELECT	IQUANT	1	Thermo Select
FRAMEWORKVERSION	LABEL	7.10.1	Framework Version
INSTRUMENTVERSION	LABEL	4.80	Instrument Version
COMMVERSION	LABEL	5.10	Communications Version
CPUPLDVERSION	LABEL	6.00	CPU PLD Version
CTRLPLDVERSION	LABEL	3.21	CTRL PLD Version
PSTATPLDVERSION	LABEL	0.00	PSTAT PLD Version
BOOSTERDCCALDATE	LABEL	10/1/2025	Booster DC Calibration Date
CURVE	TABLE	251
	Pt	T	Vf	Im	Vu	Sig	Ach	IERange	Over	Temp
	#	s	V vs. Ref.	A	V	V	V	#	bits	deg C
	0	0	2,04956E+000	1,79624E+001	0,00000E+000	1,76280E+000	-3,39551E-005	13	...........	-327,61
	3	3	2,05248E+000	1,79630E+001	0,00000E+000	1,76280E+000	-3,41551E-005	13	...........	-327,61
	6	6	2,05329E+000	1,79629E+001	0,00000E+000	1,76280E+000	-3,35551E-005	13	...........	-327,61
	9	9	2,05365E+000	1,79629E+001	0,00000E+000	1,76280E+000	-3,13384E-005	13	...........	-327,61
	12	12	2,05401E+000	1,79629E+001	0,00000E+000	1,76280E+000	-2,58051E-005	13	...........	-327,61
	15	15	2,05420E+000	1,79629E+001	0,00000E+000	1,76280E+000	-2,73718E-005	13	...........	-327,61
	18	18	2,05443E+000	1,79629E+001	0,00000E+000	1,76280E+000	-3,03884E-005	13	...........	-327,61
	21	21	2,05455E+000	1,79629E+001	0,00000E+000	1,76280E+000	-4,13051E-005	13	...........	-327,61
	24	24	2,05466E+000	1,79629E+001	0,00000E+000	1,76280E+000	-4,12718E-005	13	...........	-327,61
	27	27	2,05476E+000	1,79629E+001	0,00000E+000	1,76280E+000	-4,39718E-005	13	...........	-327,61
	30	30	2,05478E+000	1,79629E+001	0,00000E+000	1,76280E+000	-4,14884E-005	13	...........	-327,61
	33	33	2,05483E+000	1,79629E+001	0,00000E+000	1,76280E+000	-4,23884E-005	13	...........	-327,61
	36	36	2,05485E+000	1,79630E+001	0,00000E+000	1,76280E+000	-4,38884E-005	13	...........	-327,61
	39	39	2,05493E+000	1,79629E+001	0,00000E+000	1,76280E+000	-4,03718E-005	13	...........	-327,61
	42	42	2,05494E+000	1,79629E+001	0,00000E+000	1,76280E+000	-4,15884E-005	13	...........	-327,61
	45	45	2,05506E+000	1,79626E+001	0,00000E+000	1,76280E+000	-4,03718E-005	13	...........	-327,61
	48	48	2,05515E+000	1,79628E+001	0,00000E+000	1,76280E+000	-4,15884E-005	13	...........	-327,61
	51	51	2,05530E+000	1,79627E+001	0,00000E+000	1,76280E+000	-4,02218E-005	13	...........	-327,61
	54	54	2,05545E+000	1,79629E+001	0,00000E+000	1,76280E+000	-3,64718E-005	13	...........	-327,61
	57	57	2,05568E+000	1,79628E+001	0,00000E+000	1,76280E+000	-4,12718E-005	13	...........	-327,61
	60	60	2,05578E+000	1,79628E+001	0,00000E+000	1,76280E+000	-3,87218E-005	13	...........	-327,61
	63	63	2,05581E+000	1,79628E+001	0,00000E+000	1,76280E+000	-4,02051E-005	13	...........	-327,61
	66	66	2,05571E+000	1,79627E+001	0,00000E+000	1,76280E+000	-3,90884E-005	13	...........	-327,61
	69	69	2,05571E+000	1,79628E+001	0,00000E+000	1,76280E+000	-3,83051E-005	13	...........	-327,61
	72	72	2,05594E+000	1,79629E+001	0,00000E+000	1,76280E+000	-4,24551E-005	13	...........	-327,61
	75	75	2,05595E+000	1,79629E+001	0,00000E+000	1,76280E+000	-4,49718E-005	13	...........	-327,61
	78	78	2,05615E+000	1,79627E+001	0,00000E+000	1,76280E+000	-4,19884E-005	13	...........	-327,61
	81	81	2,05622E+000	1,79628E+001	0,00000E+000	1,76280E+000	-4,56384E-005	13	...........	-327,61
	84	84	2,05622E+000	1,79628E+001	0,00000E+000	1,76280E+000	-4,54051E-005	13	...........	-327,61
	87	87	2,05634E+000	1,79627E+001	0,00000E+000	1,76280E+000	-4,39884E-005	13	...........	-327,61
	90	90	2,05644E+000	1,79628E+001	0,00000E+000	1,76280E+000	-4,34218E-005	13	...........	-327,61
	93	93	2,05651E+000	1,79628E+001	0,00000E+000	1,76280E+000	-4,24884E-005	13	...........	-327,61
	96	96	2,05674E+000	1,79627E+001	0,00000E+000	1,76280E+000	-4,21718E-005	13	...........	-327,61
	99	99	2,05680E+000	1,79628E+001	0,00000E+000	1,76280E+000	-4,25218E-005	13	...........	-327,61
	102	102	2,05696E+000	1,79627E+001	0,00000E+000	1,76280E+000	-4,01884E-005	13	...........	-327,61
	105	105	2,05697E+000	1,79628E+001	0,00000E+000	1,76280E+000	-4,34051E-005	13	...........	-327,61
	108	108	2,05694E+000	1,79628E+001	0,00000E+000	1,76280E+000	-3,99718E-005	13	...........	-327,61
	111	111	2,05696E+000	1,79627E+001	0,00000E+000	1,76280E+000	-4,28384E-005	13	...........	-327,61
	114	114	2,05708E+000	1,79627E+001	0,00000E+000	1,76280E+000	-4,09551E-005	13	...........	-327,61
	117	117	2,05719E+000	1,79629E+001	0,00000E+000	1,76280E+000	-4,57218E-005	13	...........	-327,61
	120	120	2,05731E+000	1,79628E+001	0,00000E+000	1,76280E+000	-4,42218E-005	13	...........	-327,61
	123	123	2,05742E+000	1,79627E+001	0,00000E+000	1,76280E+000	-4,20384E-005	13	...........	-327,61
	126	126	2,04485E+000	1,69633E+001	0,00000E+000	1,66490E+000	-4,17884E-005	13	...........	-327,61
	129	129	2,04447E+000	1,69632E+001	0,00000E+000	1,66490E+000	-4,08218E-005	13	...........	-327,61
	132	132	2,04454E+000	1,69634E+001	0,00000E+000	1,66490E+000	-4,20051E-005	13	...........	-327,61
	135	135	2,04485E+000	1,69633E+001	0,00000E+000	1,66490E+000	-4,38384E-005	13	...........	-327,61
	138	138	2,04495E+000	1,69633E+001	0,00000E+000	1,66490E+000	-4,59384E-005	13	...........	-327,61
	141	141	2,04513E+000	1,69632E+001	0,00000E+000	1,66490E+000	-4,81384E-005	13	...........	-327,61
	144	144	2,04516E+000	1,69634E+001	0,00000E+000	1,66490E+000	-4,44384E-005	13	...........	-327,61
	147	147	2,04513E+000	1,69633E+001	0,00000E+000	1,66490E+000	-4,42218E-005	13	...........	-327,61
	150	150	2,04518E+000	1,69632E+001	0,00000E+000	1,66490E+000	-4,54551E-005	13	...........	-327,61
	153	153	2,04520E+000	1,69632E+001	0,00000E+000	1,66490E+000	-4,35384E-005	13	...........	-327,61
	156	156	2,04521E+000	1,69633E+001	0,00000E+000	1,66490E+000	-4,25384E-005	13	...........	-327,61
	159	159	2,04525E+000	1,69633E+001	0,00000E+000	1,66490E+000	-4,20384E-005	13	...........	-327,61
	162	162	2,04526E+000	1,69632E+001	0,00000E+000	1,66490E+000	-4,20384E-005	13	...........	-327,61
	165	165	2,04523E+000	1,69632E+001	0,00000E+000	1,66490E+000	-4,57884E-005	13	...........	-327,61
	168	168	2,04526E+000	1,69630E+001	0,00000E+000	1,66490E+000	-4,29884E-005	13	...........	-327,61
	171	171	2,04528E+000	1,69631E+001	0,00000E+000	1,66490E+000	-3,98551E-005	13	...........	-327,61
	174	174	2,04523E+000	1,69632E+001	0,00000E+000	1,66490E+000	-4,41051E-005	13	...........	-327,61
	177	177	2,04533E+000	1,69631E+001	0,00000E+000	1,66490E+000	-4,28884E-005	13	...........	-327,61
	180	180	2,04539E+000	1,69632E+001	0,00000E+000	1,66490E+000	-4,18884E-005	13	...........	-327,61
	183	183	2,04558E+000	1,69631E+001	0,00000E+000	1,66490E+000	-4,15384E-005	13	...........	-327,61
	186	186	2,04555E+000	1,69631E+001	0,00000E+000	1,66490E+000	-4,13384E-005	13	...........	-327,61
	189	189	2,04575E+000	1,69631E+001	0,00000E+000	1,66490E+000	-4,09884E-005	13	...........	-327,61
	192	192	2,04586E+000	1,69631E+001	0,00000E+000	1,66490E+000	-3,89384E-005	13	...........	-327,61
	195	195	2,04587E+000	1,69631E+001	0,00000E+000	1,66490E+000	-3,73551E-005	13	...........	-327,61
	198	198	2,04603E+000	1,69632E+001	0,00000E+000	1,66490E+000	-3,97051E-005	13	...........	-327,61
	201	201	2,04623E+000	1,69631E+001	0,00000E+000	1,66490E+000	-3,98884E-005	13	...........	-327,61
	204	204	2,04629E+000	1,69631E+001	0,00000E+000	1,66490E+000	-4,28384E-005	13	...........	-327,61
	207	207	2,04628E+000	1,69630E+001	0,00000E+000	1,66490E+000	-4,19218E-005	13	...........	-327,61
	210	210	2,04643E+000	1,69631E+001	0,00000E+000	1,66490E+000	-4,05218E-005	13	...........	-327,61
	213	213	2,04670E+000	1,69631E+001	0,00000E+000	1,66490E+000	-4,52884E-005	13	...........	-327,61
	216	216	2,04675E+000	1,69632E+001	0,00000E+000	1,66490E+000	-4,38218E-005	13	...........	-327,61
	219	219	2,04679E+000	1,69630E+001	0,00000E+000	1,66490E+000	-4,27218E-005	13	...........	-327,61
	222	222	2,04685E+000	1,69632E+001	0,00000E+000	1,66490E+000	-4,25051E-005	13	...........	-327,61
	225	225	2,04702E+000	1,69630E+001	0,00000E+000	1,66490E+000	-4,25051E-005	13	...........	-327,61
	228	228	2,04709E+000	1,69631E+001	0,00000E+000	1,66490E+000	-4,37218E-005	13	...........	-327,61
	231	231	2,04712E+000	1,69631E+001	0,00000E+000	1,66490E+000	-4,19051E-005	13	...........	-327,61
	234	234	2,04717E+000	1,69631E+001	0,00000E+000	1,66490E+000	-4,06551E-005	13	...........	-327,61
	237	237	2,04719E+000	1,69632E+001	0,00000E+000	1,66490E+000	-4,11218E-005	13	...........	-327,61
	240	240	2,04727E+000	1,69630E+001	0,00000E+000	1,66490E+000	-3,83218E-005	13	...........	-327,61
	243	243	2,04739E+000	1,69630E+001	0,00000E+000	1,66490E+000	-4,14551E-005	13	...........	-327,61
	246	246	2,04739E+000	1,69630E+001	0,00000E+000	1,66490E+000	-3,78551E-005	13	...........	-327,61
	249	249	2,04749E+000	1,69630E+001	0,00000E+000	1,66490E+000	-4,03551E-005	13	...........	-327,61
	250	250	2,04757E+000	1,69630E+001	0,00000E+000	1,66490E+000	-4,00551E-005	13	...........	-327,61

File: Activacion_Dsc_2x_#1_#2.DTA
EXPLAIN
TAG	CHRONOP
TITLE	LABEL	Chronopotentiometry Scan	Test Identifier
DATE	LABEL	3/11/2025	Date
TIME	LABEL	15:36:35	Time
NOTES	NOTES	1	Notes...
	Curva de activacion, creada a traves de la iteracion de cronopotenciometrias de 2 pasos. Rama descendent
PSTAT	PSTAT	REF3000-46189	Potentiostat
IPRESTEP	QUANT	1,60000E+001	A Real Number
TPRESTEP	QUANT	0,00000E+000	Pre-step Delay Time (s)
ISTEP1	QUANT	1,60000E+001	A Real Number
TSTEP1	QUANT	1,25000E+002	Step 1 Time (s)
ISTEP2	QUANT	1,50000E+001	A Real Number
TSTEP2	QUANT	1,25000E+002	Step 2 Time (s)
SAMPLETIME	QUANT	1,00000E+000	Sample Period (s)
DECIMATE	TOGGLE	F	Decimate
VLIMITLOWER	QUANT	-4,00000E+000	Lower Limit V (V)
VLIMITUPPER	QUANT	4,00000E+000	Upper Limit V (V)
EQDELAY	QUANT	0,00000E+000	Equil. Time (s)
SAMPLINGMODE	SELECTOR	1	Sampling Mode
AREA	QUANT	2,50000E+001	Sample Area (cm^2)
ELECTRODETYPE	SELECTOR	0	Electrode Type
STRIPPING	TOGGLE	F	Used for Stripping
SEQUENCER	TOGGLE	TRUE	Run as Sequence
PSTATMODEL	IQUANT	6	Pstat Model
PSTATSECTION	LABEL	REF30K-46189	Pstat Section
PSTATSERIALNO	LABEL	46189	Pstat Serial Number
CTRLMODE	IQUANT	0	Control Mode
ELECTROMETER	IQUANT	0	RE=0 or CS=1
IESTAB	IQUANT	0	I/E Stability
CASPEED	IQUANT	4	Control Amp Speed
CONVENTION	IQUANT	1	Current Convention
ICHRANGE	IQUANT	2	Ich Range
ICHRANGEMODE	TOGGLE	T	Ich Auto Range
ICHOFFSETENABLE	TOGGLE	F	Ich Offset Enable
ICHOFFSET	QUANT	0	Ich Offset (V)
ICHFILTER	IQUANT	3	Ich Filter
VCHRANGE	IQUANT	3	Vch Range
VCHRANGEMODE	TOGGLE	T	Vch Auto Range
VCHOFFSETENABLE	TOGGLE	F	Vch Offset Enable
VCHOFFSET	QUANT	0	Vch Offset (V)
VCHFILTER	IQUANT	3	Vch Filter
ACHRANGE	IQUANT	2	Ach Range
ACHOFFSETENABLE	TOGGLE	F	Ach Offset Enable
ACHOFFSET	QUANT	0	Ach Offset (V)
ACHFILTER	IQUANT	1	Ach Filter
IERANGELOWERLIMIT	IQUANT	13	I/E Range Lower Limit
IERANGEMODE	TOGGLE	F	I/E AutoRange
IERANGE	IQUANT	13	I/E Range
POSFEEDENABLE	TOGGLE	F	Positive Feedback IR Comp
POSFEEDRESISTANCE	QUANT	0	Positive Feedback Resistance (ohm)
ACHSELECT	IQUANT	4	Ach Select
SENSECABLEID	IQUANT	14	Sense Cable ID
PWRCABLEID	IQUANT	8	Power Cable ID
DCCALDATE	LABEL	10/1/2025	DC Calibration Date
ACCALDATE	LABEL	10/1/2025	AC Calibration Date
THERMOSELECT	IQUANT	1	Thermo Select
FRAMEWORKVERSION	LABEL	7.10.1	Framework Version
INSTRUMENTVERSION	LABEL	4.80	Instrument Version
COMMVERSION	LABEL	5.10	Communications Version
CPUPLDVERSION	LABEL	6.00	CPU PLD Version
CTRLPLDVERSION	LABEL	3.21	CTRL PLD Version
PSTATPLDVERSION	LABEL	0.00	PSTAT PLD Version
BOOSTERDCCALDATE	LABEL	10/1/2025	Booster DC Calibration Date
CURVE	TABLE	251
	Pt	T	Vf	Im	Vu	Sig	Ach	IERange	Over	Temp
	#	s	V vs. Ref.	A	V	V	V	#	bits	deg C
	0	0	2,03033E+000	1,59620E+001	0,00000E+000	1,56695E+000	-3,59718E-005	13	...........	-327,61
	3	3	2,03244E+000	1,59625E+001	0,00000E+000	1,56695E+000	-4,43218E-005	13	...........	-327,61
	6	6	2,03305E+000	1,59625E+001	0,00000E+000	1,56695E+000	-4,02384E-005	13	...........	-327,61
	9	9	2,03357E+000	1,59624E+001	0,00000E+000	1,56695E+000	-4,25051E-005	13	...........	-327,61
	12	12	2,03397E+000	1,59625E+001	0,00000E+000	1,56695E+000	-4,14051E-005	13	...........	-327,61
	15	15	2,03410E+000	1,59626E+001	0,00000E+000	1,56695E+000	-3,97384E-005	13	...........	-327,61
	18	18	2,03429E+000	1,59625E+001	0,00000E+000	1,56695E+000	-3,76718E-005	13	...........	-327,61
	21	21	2,03459E+000	1,59624E+001	0,00000E+000	1,56695E+000	-4,02051E-005	13	...........	-327,61
	24	24	2,03473E+000	1,59626E+001	0,00000E+000	1,56695E+000	-4,89384E-005	13	...........	-327,61
	27	27	2,03479E+000	1,59625E+001	0,00000E+000	1,56695E+000	-4,60051E-005	13	...........	-327,61
	30	30	2,03490E+000	1,59624E+001	0,00000E+000	1,56695E+000	-4,57718E-005	13	...........	-327,61
	33	33	2,03490E+000	1,59624E+001	0,00000E+000	1,56695E+000	-4,55218E-005	13	...........	-327,61
	36	36	2,03504E+000	1,59624E+001	0,00000E+000	1,56695E+000	-4,38384E-005	13	...........	-327,61
	39	39	2,03524E+000	1,59624E+001	0,00000E+000	1,56695E+000	-4,71384E-005	13	...........	-327,61
	42	42	2,03545E+000	1,59623E+001	0,00000E+000	1,56695E+000	-4,65051E-005	13	...........	-327,61
	45	45	2,03555E+000	1,59624E+001	0,00000E+000	1,56695E+000	-4,71218E-005	13	...........	-327,61
	48	48	2,03557E+000	1,59625E+001	0,00000E+000	1,56695E+000	-4,63051E-005	13	...........	-327,61
	51	51	2,03571E+000	1,59624E+001	0,00000E+000	1,56695E+000	-4,89384E-005	13	...........	-327,61
	54	54	2,03577E+000	1,59623E+001	0,00000E+000	1,56695E+000	-4,70884E-005	13	...........	-327,61
	57	57	2,03585E+000	1,59623E+001	0,00000E+000	1,56695E+000	-4,53218E-005	13	...........	-327,61
	60	60	2,03596E+000	1,59624E+001	0,00000E+000	1,56695E+000	-4,77218E-005	13	...........	-327,61
	63	63	2,03604E+000	1,59622E+001	0,00000E+000	1,56695E+000	-4,52551E-005	13	...........	-327,61
	66	66	2,03619E+000	1,59624E+001	0,00000E+000	1,56695E+000	-4,52384E-005	13	...........	-327,61
	69	69	2,03632E+000	1,59624E+001	0,00000E+000	1,56695E+000	-4,49384E-005	13	...........	-327,61
	72	72	2,03655E+000	1,59622E+001	0,00000E+000	1,56695E+000	-4,70384E-005	13	...........	-327,61
	75	75	2,03668E+000	1,59621E+001	0,00000E+000	1,56695E+000	-4,46218E-005	13	...........	-327,61
	78	78	2,03671E+000	1,59622E+001	0,00000E+000	1,56695E+000	-4,55551E-005	13	...........	-327,61
	81	81	2,03705E+000	1,59624E+001	0,00000E+000	1,56695E+000	-4,31551E-005	13	...........	-327,61
	84	84	2,03715E+000	1,59623E+001	0,00000E+000	1,56695E+000	-4,46718E-005	13	...........	-327,61
	87	87	2,03725E+000	1,59623E+001	0,00000E+000	1,56695E+000	-4,38051E-005	13	...........	-327,61
	90	90	2,03737E+000	1,59624E+001	0,00000E+000	1,56695E+000	-4,48884E-005	13	...........	-327,61
	93	93	2,03745E+000	1,59624E+001	0,00000E+000	1,56695E+000	-4,48218E-005	13	...........	-327,61
	96	96	2,03751E+000	1,59623E+001	0,00000E+000	1,56695E+000	-4,39718E-005	13	...........	-327,61
	99	99	2,03765E+000	1,59624E+001	0,00000E+000	1,56695E+000	-4,35884E-005	13	...........	-327,61
	102	102	2,03777E+000	1,59623E+001	0,00000E+000	1,56695E+000	-4,37051E-005	13	...........	-327,61
	105	105	2,03785E+000	1,59623E+001	0,00000E+000	1,56695E+000	-4,29218E-005	13	...........	-327,61
	108	108	2,03800E+000	1,59624E+001	0,00000E+000	1,56695E+000	-4,29884E-005	13	...........	-327,61
	111	111	2,03813E+000	1,59623E+001	0,00000E+000	1,56695E+000	-4,41718E-005	13	...........	-327,61
	114	114	2,03809E+000	1,59623E+001	0,00000E+000	1,56695E+000	-4,54884E-005	13	...........	-327,61
	117	117	2,03798E+000	1,59623E+001	0,00000E+000	1,56695E+000	-4,30884E-005	13	...........	-327,61
	120	120	2,03791E+000	1,59622E+001	0,00000E+000	1,56695E+000	-4,02218E-005	13	...........	-327,61
	123	123	2,03795E+000	1,59623E+001	0,00000E+000	1,56695E+000	-4,33884E-005	13	...........	-327,61
	126	126	2,02489E+000	1,49625E+001	0,00000E+000	1,46900E+000	-4,27551E-005	13	...........	-327,61
	129	129	2,02468E+000	1,49625E+001	0,00000E+000	1,46900E+000	-4,43551E-005	13	...........	-327,61
	132	132	2,02473E+000	1,49624E+001	0,00000E+000	1,46900E+000	-4,37551E-005	13	...........	-327,61
	135	135	2,02469E+000	1,49624E+001	0,00000E+000	1,46900E+000	-4,27384E-005	13	...........	-327,61
	138	138	2,02480E+000	1,49624E+001	0,00000E+000	1,46900E+000	-4,25218E-005	13	...........	-327,61
	141	141	2,02486E+000	1,49624E+001	0,00000E+000	1,46900E+000	-4,19884E-005	13	...........	-327,61
	144	144	2,02499E+000	1,49624E+001	0,00000E+000	1,46900E+000	-4,26718E-005	13	...........	-327,61
	147	147	2,02508E+000	1,49623E+001	0,00000E+000	1,46900E+000	-4,26384E-005	13	...........	-327,61
	150	150	2,02512E+000	1,49623E+001	0,00000E+000	1,46900E+000	-4,17384E-005	13	...........	-327,61
	153	153	2,02516E+000	1,49624E+001	0,00000E+000	1,46900E+000	-4,26218E-005	13	...........	-327,61
	156	156	2,02533E+000	1,49623E+001	0,00000E+000	1,46900E+000	-4,21384E-005	13	...........	-327,61
	159	159	2,02530E+000	1,49624E+001	0,00000E+000	1,46900E+000	-4,19884E-005	13	...........	-327,61
	162	162	2,02522E+000	1,49623E+001	0,00000E+000	1,46900E+000	-4,38384E-005	13	...........	-327,61
	165	165	2,02522E+000	1,49623E+001	0,00000E+000	1,46900E+000	-4,10384E-005	13	...........	-327,61
	168	168	2,02538E+000	1,49623E+001	0,00000E+000	1,46900E+000	-4,65718E-005	13	...........	-327,61
	171	171	2,02543E+000	1,49623E+001	0,00000E+000	1,46900E+000	-4,34718E-005	13	...........	-327,61
	174	174	2,02554E+000	1,49624E+001	0,00000E+000	1,46900E+000	-4,65051E-005	13	...........	-327,61
	177	177	2,02560E+000	1,49625E+001	0,00000E+000	1,46900E+000	-4,58384E-005	13	...........	-327,61
	180	180	2,02571E+000	1,49624E+001	0,00000E+000	1,46900E+000	-4,65384E-005	13	...........	-327,61
	183	183	2,02587E+000	1,49624E+001	0,00000E+000	1,46900E+000	-4,53718E-005	13	...........	-327,61
	186	186	2,02597E+000	1,49624E+001	0,00000E+000	1,46900E+000	-4,70551E-005	13	...........	-327,61
	189	189	2,02602E+000	1,49624E+001	0,00000E+000	1,46900E+000	-4,56551E-005	13	...........	-327,61
	192	192	2,02604E+000	1,49624E+001	0,00000E+000	1,46900E+000	-4,73384E-005	13	...........	-327,61
	195	195	2,02614E+000	1,49623E+001	0,00000E+000	1,46900E+000	-4,71051E-005	13	...........	-327,61
	198	198	2,02610E+000	1,49624E+001	0,00000E+000	1,46900E+000	-4,47384E-005	13	...........	-327,61
	201	201	2,02607E+000	1,49624E+001	0,00000E+000	1,46900E+000	-4,53718E-005	13	...........	-327,61
	204	204	2,02601E+000	1,49624E+001	0,00000E+000	1,46900E+000	-4,69051E-005	13	...........	-327,61
	207	207	2,02600E+000	1,49624E+001	0,00000E+000	1,46900E+000	-4,63718E-005	13	...........	-327,61
	210	210	2,02608E+000	1,49623E+001	0,00000E+000	1,46900E+000	-4,44051E-005	13	...........	-327,61
	213	213	2,02624E+000	1,49623E+001	0,00000E+000	1,46900E+000	-4,46718E-005	13	...........	-327,61
	216	216	2,02619E+000	1,49624E+001	0,00000E+000	1,46900E+000	-4,45051E-005	13	...........	-327,61
	219	219	2,02634E+000	1,49624E+001	0,00000E+000	1,46900E+000	-4,75384E-005	13	...........	-327,61
	222	222	2,02641E+000	1,49624E+001	0,00000E+000	1,46900E+000	-4,49051E-005	13	...........	-327,61
	225	225	2,02636E+000	1,49623E+001	0,00000E+000	1,46900E+000	-4,65218E-005	13	...........	-327,61
	228	228	2,02643E+000	1,49623E+001	0,00000E+000	1,46900E+000	-4,29218E-005	13	...........	-327,61
	231	231	2,02652E+000	1,49622E+001	0,00000E+000	1,46900E+000	-4,31051E-005	13	...........	-327,61
	234	234	2,02661E+000	1,49622E+001	0,00000E+000	1,46900E+000	-4,14051E-005	13	...........	-327,61
	237	237	2,02670E+000	1,49624E+001	0,00000E+000	1,46900E+000	-4,57718E-005	13	...........	-327,61
	240	240	2,02668E+000	1,49625E+001	0,00000E+000	1,46900E+000	-4,23384E-005	13	...........	-327,61
	243	243	2,02676E+000	1,49623E+001	0,00000E+000	1,46900E+000	-4,34551E-005	13	...........	-327,61
	246	246	2,02662E+000	1,49624E+001	0,00000E+000	1,46900E+000	-4,34551E-005	13	...........	-327,61
	249	249	2,02661E+000	1,49622E+001	0,00000E+000	1,46900E+000	-4,09884E-005	13	...........	-327,61
	250	250	2,02659E+000	1,49624E+001	0,00000E+000	1,46900E+000	-4,12718E-005	13	...........	-327,61