Folder: gamryprotocoltools/examples (part 6)

File: Curva_Polarizacion_Asc_33s_2x_#2.DTA
EXPLAIN
TAG	CHRONOP
TITLE	LABEL	Chronopotentiometry Scan	Test Identifier
DATE	LABEL	4/11/2025	Date
TIME	LABEL	7:42:37	Time
NOTES	NOTES	1	Notes...

PSTAT	PSTAT	REF3000-46189	Potentiostat
IPRESTEP	QUANT	2,00000E-001	A Real Number
TPRESTEP	QUANT	0,00000E+000	Pre-step Delay Time (s)
ISTEP1	QUANT	2,00000E-001	A Real Number
TSTEP1	QUANT	3,30000E+001	Step 1 Time (s)
ISTEP2	QUANT	3,00000E-001	A Real Number
TSTEP2	QUANT	3,30000E+001	Step 2 Time (s)
SAMPLETIME	QUANT	1,00000E+000	Sample Period (s)
DECIMATE	TOGGLE	F	Decimate
VLIMITLOWER	QUANT	-4,00000E+000	Lower Limit V (V)
VLIMITUPPER	QUANT	4,00000E+000	Upper Limit V (V)
EQDELAY	QUANT	0,00000E+000	Equil. Time (s)
SAMPLINGMODE	SELECTOR	1	Sampling Mode
AREA	QUANT	2,50000E+001	Sample Area (cm^2)
ELECTRODETYPE	SELECTOR	0	Electrode Type
STRIPPING	TOGGLE	F	Used for Stripping
SEQUENCER	TOGGLE	TRUE	Run as Sequence
PSTATMODEL	IQUANT	6	Pstat Model
PSTATSECTION	LABEL	REF30K-46189	Pstat Section
PSTATSERIALNO	LABEL	46189	Pstat Serial Number
CTRLMODE	IQUANT	0	Control Mode
ELECTROMETER	IQUANT	0	RE=0 or CS=1
IESTAB	IQUANT	0	I/E Stability
CASPEED	IQUANT	4	Control Amp Speed
CONVENTION	IQUANT	1	Current Convention
ICHRANGE	IQUANT	2	Ich Range
ICHRANGEMODE	TOGGLE	T	Ich Auto Range
ICHOFFSETENABLE	TOGGLE	F	Ich Offset Enable
ICHOFFSET	QUANT	0	Ich Offset (V)
ICHFILTER	IQUANT	3	Ich Filter
VCHRANGE	IQUANT	3	Vch Range
VCHRANGEMODE	TOGGLE	T	Vch Auto Range
VCHOFFSETENABLE	TOGGLE	F	Vch Offset Enable
VCHOFFSET	QUANT	0	Vch Offset (V)
VCHFILTER	IQUANT	3	Vch Filter
ACHRANGE	IQUANT	2	Ach Range
ACHOFFSETENABLE	TOGGLE	F	Ach Offset Enable
ACHOFFSET	QUANT	0	Ach Offset (V)
ACHFILTER	IQUANT	1	Ach Filter
IERANGELOWERLIMIT	IQUANT	13	I/E Range Lower Limit
IERANGEMODE	TOGGLE	F	I/E AutoRange
IERANGE	IQUANT	13	I/E Range
POSFEEDENABLE	TOGGLE	F	Positive Feedback IR Comp
POSFEEDRESISTANCE	QUANT	0	Positive Feedback Resistance (ohm)
ACHSELECT	IQUANT	4	Ach Select
SENSECABLEID	IQUANT	14	Sense Cable ID
PWRCABLEID	IQUANT	8	Power Cable ID
DCCALDATE	LABEL	10/1/2025	DC Calibration Date
ACCALDATE	LABEL	10/1/2025	AC Calibration Date
THERMOSELECT	IQUANT	1	Thermo Select
FRAMEWORKVERSION	LABEL	7.10.1	Framework Version
INSTRUMENTVERSION	LABEL	4.80	Instrument Version
COMMVERSION	LABEL	5.10	Communications Version
CPUPLDVERSION	LABEL	6.00	CPU PLD Version
CTRLPLDVERSION	LABEL	3.21	CTRL PLD Version
PSTATPLDVERSION	LABEL	0.00	PSTAT PLD Version
BOOSTERDCCALDATE	LABEL	10/1/2025	Booster DC Calibration Date
CURVE	TABLE	67
	Pt	T	Vf	Im	Vu	Sig	Ach	IERange	Over	Temp
	#	s	V vs. Ref.	A	V	V	V	#	bits	deg C
	0	0	2,50981E-001	1,67087E-001	0,00000E+000	1,96000E-002	-4,00051E-005	13	...........	-327,61
	1	1	2,72165E-001	1,67116E-001	0,00000E+000	1,96000E-002	-4,27884E-005	13	...........	-327,61
	2	2	2,92413E-001	1,67087E-001	0,00000E+000	1,96000E-002	-3,91218E-005	13	...........	-327,61
	3	3	3,13868E-001	1,67133E-001	0,00000E+000	1,96000E-002	-4,16384E-005	13	...........	-327,61
	4	4	3,36414E-001	1,67150E-001	0,00000E+000	1,96000E-002	-3,88384E-005	13	...........	-327,61
	5	5	3,60861E-001	1,67117E-001	0,00000E+000	1,96000E-002	-4,21884E-005	13	...........	-327,61
	6	6	3,87030E-001	1,67115E-001	0,00000E+000	1,96000E-002	-3,85218E-005	13	...........	-327,61
	7	7	4,15338E-001	1,67085E-001	0,00000E+000	1,96000E-002	-4,07218E-005	13	...........	-327,61
	8	8	4,46350E-001	1,67121E-001	0,00000E+000	1,96000E-002	-4,03384E-005	13	...........	-327,61
	9	9	4,80269E-001	1,67131E-001	0,00000E+000	1,96000E-002	-3,91218E-005	13	...........	-327,61
	10	10	5,18046E-001	1,67192E-001	0,00000E+000	1,96000E-002	-3,91884E-005	13	...........	-327,61
	11	11	5,61664E-001	1,67158E-001	0,00000E+000	1,96000E-002	-3,97384E-005	13	...........	-327,61
	12	12	6,13020E-001	1,67210E-001	0,00000E+000	1,96000E-002	-4,02551E-005	13	...........	-327,61
	13	13	6,76952E-001	1,67183E-001	0,00000E+000	1,96000E-002	-4,15884E-005	13	...........	-327,61
	14	14	7,54715E-001	1,67167E-001	0,00000E+000	1,96000E-002	-3,82218E-005	13	...........	-327,61
	15	15	8,30967E-001	1,67237E-001	0,00000E+000	1,96000E-002	-4,15051E-005	13	...........	-327,61
	16	16	8,92341E-001	1,67195E-001	0,00000E+000	1,96000E-002	-3,76218E-005	13	...........	-327,61
	17	17	9,44412E-001	1,67190E-001	0,00000E+000	1,96000E-002	-3,98551E-005	13	...........	-327,61
	18	18	9,92190E-001	1,67186E-001	0,00000E+000	1,96000E-002	-3,60884E-005	13	...........	-327,61
	19	19	1,03835E+000	1,67170E-001	0,00000E+000	1,96000E-002	-3,76384E-005	13	...........	-327,61
	20	20	1,08362E+000	1,67209E-001	0,00000E+000	1,96000E-002	-3,83884E-005	13	...........	-327,61
	21	21	1,12844E+000	1,67181E-001	0,00000E+000	1,96000E-002	-4,27551E-005	13	...........	-327,61
	22	22	1,17323E+000	1,67190E-001	0,00000E+000	1,96000E-002	-4,34218E-005	13	...........	-327,61
	23	23	1,21713E+000	1,67157E-001	0,00000E+000	1,96000E-002	-4,87551E-005	13	...........	-327,61
	24	24	1,26071E+000	1,67151E-001	0,00000E+000	1,96000E-002	-4,98051E-005	13	...........	-327,61
	25	25	1,30397E+000	1,67151E-001	0,00000E+000	1,96000E-002	-4,54051E-005	13	...........	-327,61
	26	26	1,34588E+000	1,67182E-001	0,00000E+000	1,96000E-002	-4,52718E-005	13	...........	-327,61
	27	27	1,38574E+000	1,67176E-001	0,00000E+000	1,96000E-002	-4,87384E-005	13	...........	-327,61
	28	28	1,42071E+000	1,67215E-001	0,00000E+000	1,96000E-002	-4,54884E-005	13	...........	-327,61
	29	29	1,44790E+000	1,67211E-001	0,00000E+000	1,96000E-002	-4,47551E-005	13	...........	-327,61
	30	30	1,46714E+000	1,67208E-001	0,00000E+000	1,96000E-002	-4,83551E-005	13	...........	-327,61
	31	31	1,47956E+000	1,67178E-001	0,00000E+000	1,96000E-002	-4,48718E-005	13	...........	-327,61
	32	32	1,48752E+000	1,67226E-001	0,00000E+000	1,96000E-002	-5,04884E-005	13	...........	-327,61
	33	33	1,49331E+000	1,67223E-001	0,00000E+000	1,96000E-002	-5,04218E-005	13	...........	-327,61
	34	34	1,51618E+000	2,67137E-001	0,00000E+000	2,94000E-002	-4,71218E-005	13	...........	-327,61
	35	35	1,52080E+000	2,67197E-001	0,00000E+000	2,94000E-002	-5,01884E-005	13	...........	-327,61
	36	36	1,52469E+000	2,67161E-001	0,00000E+000	2,94000E-002	-5,01384E-005	13	...........	-327,61
	37	37	1,52734E+000	2,67191E-001	0,00000E+000	2,94000E-002	-4,68384E-005	13	...........	-327,61
	38	38	1,53002E+000	2,67179E-001	0,00000E+000	2,94000E-002	-4,88218E-005	13	...........	-327,61
	39	39	1,53212E+000	2,67176E-001	0,00000E+000	2,94000E-002	-4,17051E-005	13	...........	-327,61
	40	40	1,53386E+000	2,67150E-001	0,00000E+000	2,94000E-002	-4,57384E-005	13	...........	-327,61
	41	41	1,53574E+000	2,67126E-001	0,00000E+000	2,94000E-002	-4,96218E-005	13	...........	-327,61
	42	42	1,53742E+000	2,67178E-001	0,00000E+000	2,94000E-002	-5,02218E-005	13	...........	-327,61
	43	43	1,53861E+000	2,67178E-001	0,00000E+000	2,94000E-002	-4,39551E-005	13	...........	-327,61
	44	44	1,54002E+000	2,67190E-001	0,00000E+000	2,94000E-002	-4,71551E-005	13	...........	-327,61
	45	45	1,54127E+000	2,67191E-001	0,00000E+000	2,94000E-002	-5,03884E-005	13	...........	-327,61
	46	46	1,54230E+000	2,67191E-001	0,00000E+000	2,94000E-002	-4,75884E-005	13	...........	-327,61
	47	47	1,54343E+000	2,67152E-001	0,00000E+000	2,94000E-002	-4,59051E-005	13	...........	-327,61
	48	48	1,54438E+000	2,67210E-001	0,00000E+000	2,94000E-002	-5,46884E-005	13	...........	-327,61
	49	49	1,54526E+000	2,67211E-001	0,00000E+000	2,94000E-002	-4,71051E-005	13	...........	-327,61
	50	50	1,54623E+000	2,67181E-001	0,00000E+000	2,94000E-002	-5,09218E-005	13	...........	-327,61
	51	51	1,54696E+000	2,67147E-001	0,00000E+000	2,94000E-002	-4,94051E-005	13	...........	-327,61
	52	52	1,54778E+000	2,67206E-001	0,00000E+000	2,94000E-002	-4,79718E-005	13	...........	-327,61
	53	53	1,54862E+000	2,67123E-001	0,00000E+000	2,94000E-002	-4,70884E-005	13	...........	-327,61
	54	54	1,54926E+000	2,67197E-001	0,00000E+000	2,94000E-002	-5,21884E-005	13	...........	-327,61
	55	55	1,55009E+000	2,67158E-001	0,00000E+000	2,94000E-002	-4,65051E-005	13	...........	-327,61
	56	56	1,55083E+000	2,67227E-001	0,00000E+000	2,94000E-002	-5,23051E-005	13	...........	-327,61
	57	57	1,55127E+000	2,67152E-001	0,00000E+000	2,94000E-002	-4,67051E-005	13	...........	-327,61
	58	58	1,55226E+000	2,67096E-001	0,00000E+000	2,94000E-002	-5,20384E-005	13	...........	-327,61
	59	59	1,55265E+000	2,67104E-001	0,00000E+000	2,94000E-002	-4,95718E-005	13	...........	-327,61
	60	60	1,55307E+000	2,67112E-001	0,00000E+000	2,94000E-002	-4,74384E-005	13	...........	-327,61
	61	61	1,55394E+000	2,67103E-001	0,00000E+000	2,94000E-002	-5,23551E-005	13	...........	-327,61
	62	62	1,55430E+000	2,67164E-001	0,00000E+000	2,94000E-002	-4,83384E-005	13	...........	-327,61
	63	63	1,55480E+000	2,67206E-001	0,00000E+000	2,94000E-002	-4,73718E-005	13	...........	-327,61
	64	64	1,55555E+000	2,67217E-001	0,00000E+000	2,94000E-002	-4,83718E-005	13	...........	-327,61
	65	65	1,55576E+000	2,67098E-001	0,00000E+000	2,94000E-002	-4,79884E-005	13	...........	-327,61
	66	66	1,55624E+000	2,67092E-001	0,00000E+000	2,94000E-002	-4,42884E-005	13	...........	-327,61

File: Curva_Polarizacion_Dsc_33s_2x_#1.DTA
EXPLAIN
TAG	CHRONOP
TITLE	LABEL	Chronopotentiometry Scan	Test Identifier
DATE	LABEL	4/11/2025	Date
TIME	LABEL	9:28:22	Time
NOTES	NOTES	1	Notes...

PSTAT	PSTAT	REF3000-46189	Potentiostat
IPRESTEP	QUANT	1,89000E+001	A Real Number
TPRESTEP	QUANT	0,00000E+000	Pre-step Delay Time (s)
ISTEP1	QUANT	1,89000E+001	A Real Number
TSTEP1	QUANT	3,30000E+001	Step 1 Time (s)
ISTEP2	QUANT	1,87000E+001	A Real Number
TSTEP2	QUANT	3,30000E+001	Step 2 Time (s)
SAMPLETIME	QUANT	1,00000E+000	Sample Period (s)
DECIMATE	TOGGLE	F	Decimate
VLIMITLOWER	QUANT	-4,00000E+000	Lower Limit V (V)
VLIMITUPPER	QUANT	4,00000E+000	Upper Limit V (V)
EQDELAY	QUANT	0,00000E+000	Equil. Time (s)
SAMPLINGMODE	SELECTOR	1	Sampling Mode
AREA	QUANT	2,50000E+001	Sample Area (cm^2)
ELECTRODETYPE	SELECTOR	0	Electrode Type
STRIPPING	TOGGLE	F	Used for Stripping
SEQUENCER	TOGGLE	TRUE	Run as Sequence
PSTATMODEL	IQUANT	6	Pstat Model
PSTATSECTION	LABEL	REF30K-46189	Pstat Section
PSTATSERIALNO	LABEL	46189	Pstat Serial Number
CTRLMODE	IQUANT	0	Control Mode
ELECTROMETER	IQUANT	0	RE=0 or CS=1
IESTAB	IQUANT	0	I/E Stability
CASPEED	IQUANT	4	Control Amp Speed
CONVENTION	IQUANT	1	Current Convention
ICHRANGE	IQUANT	2	Ich Range
ICHRANGEMODE	TOGGLE	T	Ich Auto Range
ICHOFFSETENABLE	TOGGLE	F	Ich Offset Enable
ICHOFFSET	QUANT	0	Ich Offset (V)
ICHFILTER	IQUANT	3	Ich Filter
VCHRANGE	IQUANT	3	Vch Range
VCHRANGEMODE	TOGGLE	T	Vch Auto Range
VCHOFFSETENABLE	TOGGLE	F	Vch Offset Enable
VCHOFFSET	QUANT	0	Vch Offset (V)
VCHFILTER	IQUANT	3	Vch Filter
ACHRANGE	IQUANT	2	Ach Range
ACHOFFSETENABLE	TOGGLE	F	Ach Offset Enable
ACHOFFSET	QUANT	0	Ach Offset (V)
ACHFILTER	IQUANT	1	Ach Filter
IERANGELOWERLIMIT	IQUANT	13	I/E Range Lower Limit
IERANGEMODE	TOGGLE	F	I/E AutoRange
IERANGE	IQUANT	13	I/E Range
POSFEEDENABLE	TOGGLE	F	Positive Feedback IR Comp
POSFEEDRESISTANCE	QUANT	0	Positive Feedback Resistance (ohm)
ACHSELECT	IQUANT	4	Ach Select
SENSECABLEID	IQUANT	14	Sense Cable ID
PWRCABLEID	IQUANT	8	Power Cable ID
DCCALDATE	LABEL	10/1/2025	DC Calibration Date
ACCALDATE	LABEL	10/1/2025	AC Calibration Date
THERMOSELECT	IQUANT	1	Thermo Select
FRAMEWORKVERSION	LABEL	7.10.1	Framework Version
INSTRUMENTVERSION	LABEL	4.80	Instrument Version
COMMVERSION	LABEL	5.10	Communications Version
CPUPLDVERSION	LABEL	6.00	CPU PLD Version
CTRLPLDVERSION	LABEL	3.21	CTRL PLD Version
PSTATPLDVERSION	LABEL	0.00	PSTAT PLD Version
BOOSTERDCCALDATE	LABEL	10/1/2025	Booster DC Calibration Date
CURVE	TABLE	67
	Pt	T	Vf	Im	Vu	Sig	Ach	IERange	Over	Temp
	#	s	V vs. Ref.	A	V	V	V	#	bits	deg C
	0	0	2,30738E+000	1,88632E+001	0,00000E+000	1,85095E+000	-4,30551E-005	13	...........	-327,61
	1	1	2,33620E+000	1,88637E+001	0,00000E+000	1,85095E+000	-4,99551E-005	13	...........	-327,61
	2	2	2,34803E+000	1,88637E+001	0,00000E+000	1,85095E+000	-4,56718E-005	13	...........	-327,61
	3	3	2,35443E+000	1,88638E+001	0,00000E+000	1,85095E+000	-4,59884E-005	13	...........	-327,61
	4	4	2,35821E+000	1,88637E+001	0,00000E+000	1,85095E+000	-4,40551E-005	13	...........	-327,61
	5	5	2,36028E+000	1,88638E+001	0,00000E+000	1,85095E+000	-4,94218E-005	13	...........	-327,61
	6	6	2,36220E+000	1,88637E+001	0,00000E+000	1,85095E+000	-4,53051E-005	13	...........	-327,61
	7	7	2,36311E+000	1,88638E+001	0,00000E+000	1,85095E+000	-4,69718E-005	13	...........	-327,61
	8	8	2,36385E+000	1,88636E+001	0,00000E+000	1,85095E+000	-4,53384E-005	13	...........	-327,61
	9	9	2,36470E+000	1,88637E+001	0,00000E+000	1,85095E+000	-4,70051E-005	13	...........	-327,61
	10	10	2,36517E+000	1,88639E+001	0,00000E+000	1,85095E+000	-4,87218E-005	13	...........	-327,61
	11	11	2,36535E+000	1,88637E+001	0,00000E+000	1,85095E+000	-4,65218E-005	13	...........	-327,61
	12	12	2,36602E+000	1,88636E+001	0,00000E+000	1,85095E+000	-4,41051E-005	13	...........	-327,61
	13	13	2,36601E+000	1,88636E+001	0,00000E+000	1,85095E+000	-4,65718E-005	13	...........	-327,61
	14	14	2,36610E+000	1,88637E+001	0,00000E+000	1,85095E+000	-4,40551E-005	13	...........	-327,61
	15	15	2,36619E+000	1,88636E+001	0,00000E+000	1,85095E+000	-4,51384E-005	13	...........	-327,61
	16	16	2,36603E+000	1,88637E+001	0,00000E+000	1,85095E+000	-4,32718E-005	13	...........	-327,61
	17	17	2,36622E+000	1,88637E+001	0,00000E+000	1,85095E+000	-4,65218E-005	13	...........	-327,61
	18	18	2,36657E+000	1,88638E+001	0,00000E+000	1,85095E+000	-4,79051E-005	13	...........	-327,61
	19	19	2,36630E+000	1,88638E+001	0,00000E+000	1,85095E+000	-4,72218E-005	13	...........	-327,61
	20	20	2,36635E+000	1,88637E+001	0,00000E+000	1,85095E+000	-4,50718E-005	13	...........	-327,61
	21	21	2,36646E+000	1,88637E+001	0,00000E+000	1,85095E+000	-5,36051E-005	13	...........	-327,61
	22	22	2,36604E+000	1,88636E+001	0,00000E+000	1,85095E+000	-5,10551E-005	13	...........	-327,61
	23	23	2,36645E+000	1,88639E+001	0,00000E+000	1,85095E+000	-5,53551E-005	13	...........	-327,61
	24	24	2,36595E+000	1,88637E+001	0,00000E+000	1,85095E+000	-5,23884E-005	13	...........	-327,61
	25	25	2,36588E+000	1,88638E+001	0,00000E+000	1,85095E+000	-5,32051E-005	13	...........	-327,61
	26	26	2,36601E+000	1,88638E+001	0,00000E+000	1,85095E+000	-5,11551E-005	13	...........	-327,61
	27	27	2,36567E+000	1,88637E+001	0,00000E+000	1,85095E+000	-4,86384E-005	13	...........	-327,61
	28	28	2,36545E+000	1,88637E+001	0,00000E+000	1,85095E+000	-5,14218E-005	13	...........	-327,61
	29	29	2,36566E+000	1,88637E+001	0,00000E+000	1,85095E+000	-5,10551E-005	13	...........	-327,61
	30	30	2,36518E+000	1,88639E+001	0,00000E+000	1,85095E+000	-5,19551E-005	13	...........	-327,61
	31	31	2,36522E+000	1,88640E+001	0,00000E+000	1,85095E+000	-5,26384E-005	13	...........	-327,61
	32	32	2,36515E+000	1,88639E+001	0,00000E+000	1,85095E+000	-5,55551E-005	13	...........	-327,61
	33	33	2,36477E+000	1,88638E+001	0,00000E+000	1,85095E+000	-5,40218E-005	13	...........	-327,61
	34	34	2,35782E+000	1,86640E+001	0,00000E+000	1,83135E+000	-4,75051E-005	13	...........	-327,61
	35	35	2,35676E+000	1,86639E+001	0,00000E+000	1,83135E+000	-5,28884E-005	13	...........	-327,61
	36	36	2,35607E+000	1,86638E+001	0,00000E+000	1,83135E+000	-4,96051E-005	13	...........	-327,61
	37	37	2,35584E+000	1,86638E+001	0,00000E+000	1,83135E+000	-5,14218E-005	13	...........	-327,61
	38	38	2,35552E+000	1,86638E+001	0,00000E+000	1,83135E+000	-5,47051E-005	13	...........	-327,61
	39	39	2,35510E+000	1,86637E+001	0,00000E+000	1,83135E+000	-5,22384E-005	13	...........	-327,61
	40	40	2,35548E+000	1,86639E+001	0,00000E+000	1,83135E+000	-5,46218E-005	13	...........	-327,61
	41	41	2,35487E+000	1,86638E+001	0,00000E+000	1,83135E+000	-4,88884E-005	13	...........	-327,61
	42	42	2,35459E+000	1,86638E+001	0,00000E+000	1,83135E+000	-4,88051E-005	13	...........	-327,61
	43	43	2,35478E+000	1,86639E+001	0,00000E+000	1,83135E+000	-5,06218E-005	13	...........	-327,61
	44	44	2,35431E+000	1,86638E+001	0,00000E+000	1,83135E+000	-4,97884E-005	13	...........	-327,61
	45	45	2,35441E+000	1,86637E+001	0,00000E+000	1,83135E+000	-5,01884E-005	13	...........	-327,61
	46	46	2,35415E+000	1,86638E+001	0,00000E+000	1,83135E+000	-4,93218E-005	13	...........	-327,61
	47	47	2,35391E+000	1,86637E+001	0,00000E+000	1,83135E+000	-5,40051E-005	13	...........	-327,61
	48	48	2,35398E+000	1,86639E+001	0,00000E+000	1,83135E+000	-5,37884E-005	13	...........	-327,61
	49	49	2,35373E+000	1,86639E+001	0,00000E+000	1,83135E+000	-5,44051E-005	13	...........	-327,61
	50	50	2,35350E+000	1,86638E+001	0,00000E+000	1,83135E+000	-4,96884E-005	13	...........	-327,61
	51	51	2,35390E+000	1,86637E+001	0,00000E+000	1,83135E+000	-5,27218E-005	13	...........	-327,61
	52	52	2,35365E+000	1,86638E+001	0,00000E+000	1,83135E+000	-5,23718E-005	13	...........	-327,61
	53	53	2,35290E+000	1,86637E+001	0,00000E+000	1,83135E+000	-4,57884E-005	13	...........	-327,61
	54	54	2,35351E+000	1,86637E+001	0,00000E+000	1,83135E+000	-5,04551E-005	13	...........	-327,61
	55	55	2,35280E+000	1,86638E+001	0,00000E+000	1,83135E+000	-4,82051E-005	13	...........	-327,61
	56	56	2,35275E+000	1,86637E+001	0,00000E+000	1,83135E+000	-4,90051E-005	13	...........	-327,61
	57	57	2,35284E+000	1,86637E+001	0,00000E+000	1,83135E+000	-4,81551E-005	13	...........	-327,61
	58	58	2,35254E+000	1,86638E+001	0,00000E+000	1,83135E+000	-4,82218E-005	13	...........	-327,61
	59	59	2,35263E+000	1,86638E+001	0,00000E+000	1,83135E+000	-4,74051E-005	13	...........	-327,61
	60	60	2,35271E+000	1,86639E+001	0,00000E+000	1,83135E+000	-4,93218E-005	13	...........	-327,61
	61	61	2,35235E+000	1,86639E+001	0,00000E+000	1,83135E+000	-5,14551E-005	13	...........	-327,61
	62	62	2,35248E+000	1,86638E+001	0,00000E+000	1,83135E+000	-5,04218E-005	13	...........	-327,61
	63	63	2,35249E+000	1,86639E+001	0,00000E+000	1,83135E+000	-4,93884E-005	13	...........	-327,61
	64	64	2,35207E+000	1,86639E+001	0,00000E+000	1,83135E+000	-5,30551E-005	13	...........	-327,61
	65	65	2,35239E+000	1,86638E+001	0,00000E+000	1,83135E+000	-5,23384E-005	13	...........	-327,61
	66	66	2,35206E+000	1,86639E+001	0,00000E+000	1,83135E+000	-5,01051E-005	13	...........	-327,61