Folder: gamryprotocoltools/examples (part 8)

File: Est_EIS_18A.DTA
EXPLAIN
TAG	CHRONOP
TITLE	LABEL	Chronopotentiometry Scan	Test Identifier
DATE	LABEL	4/11/2025	Date
TIME	LABEL	11:30:02	Time
NOTES	NOTES	1	Notes...

PSTAT	PSTAT	REF3000-46189	Potentiostat
IPRESTEP	QUANT	1,80000E+001	Pre-step Current(A)
TPRESTEP	QUANT	0,00000E+000	Pre-step Delay Time (s)
ISTEP1	QUANT	1,80000E+001	Step 1 Current (A)
TSTEP1	QUANT	1,20000E+002	Step 1 Time (s)
ISTEP2	QUANT	1,80000E+001	Step 2 Current (A)
TSTEP2	QUANT	0,00000E+000	Step 2 Time (s)
SAMPLETIME	QUANT	1,00000E+000	Sample Period (s)
DECIMATE	TOGGLE	F	Decimate
VLIMITLOWER	QUANT	-4,00000E+000	Lower Limit V (V)
VLIMITUPPER	QUANT	4,00000E+000	Upper Limit V (V)
EQDELAY	QUANT	0,00000E+000	Equil. Time (s)
SAMPLINGMODE	SELECTOR	1	Sampling Mode
AREA	QUANT	2,50000E+001	Sample Area (cm^2)
ELECTRODETYPE	SELECTOR	0	Electrode Type
STRIPPING	TOGGLE	F	Used for Stripping
SEQUENCER	TOGGLE	TRUE	Run as Sequence
PSTATMODEL	IQUANT	6	Pstat Model
PSTATSECTION	LABEL	REF30K-46189	Pstat Section
PSTATSERIALNO	LABEL	46189	Pstat Serial Number
CTRLMODE	IQUANT	0	Control Mode
ELECTROMETER	IQUANT	0	RE=0 or CS=1
IESTAB	IQUANT	0	I/E Stability
CASPEED	IQUANT	4	Control Amp Speed
CONVENTION	IQUANT	1	Current Convention
ICHRANGE	IQUANT	2	Ich Range
ICHRANGEMODE	TOGGLE	T	Ich Auto Range
ICHOFFSETENABLE	TOGGLE	F	Ich Offset Enable
ICHOFFSET	QUANT	0	Ich Offset (V)
ICHFILTER	IQUANT	3	Ich Filter
VCHRANGE	IQUANT	3	Vch Range
VCHRANGEMODE	TOGGLE	T	Vch Auto Range
VCHOFFSETENABLE	TOGGLE	F	Vch Offset Enable
VCHOFFSET	QUANT	0	Vch Offset (V)
VCHFILTER	IQUANT	3	Vch Filter
ACHRANGE	IQUANT	2	Ach Range
ACHOFFSETENABLE	TOGGLE	F	Ach Offset Enable
ACHOFFSET	QUANT	0	Ach Offset (V)
ACHFILTER	IQUANT	1	Ach Filter
IERANGELOWERLIMIT	IQUANT	13	I/E Range Lower Limit
IERANGEMODE	TOGGLE	F	I/E AutoRange
IERANGE	IQUANT	13	I/E Range
POSFEEDENABLE	TOGGLE	F	Positive Feedback IR Comp
POSFEEDRESISTANCE	QUANT	0	Positive Feedback Resistance (ohm)
ACHSELECT	IQUANT	4	Ach Select
SENSECABLEID	IQUANT	14	Sense Cable ID
PWRCABLEID	IQUANT	8	Power Cable ID
DCCALDATE	LABEL	10/1/2025	DC Calibration Date
ACCALDATE	LABEL	10/1/2025	AC Calibration Date
THERMOSELECT	IQUANT	1	Thermo Select
FRAMEWORKVERSION	LABEL	7.10.1	Framework Version
INSTRUMENTVERSION	LABEL	4.80	Instrument Version
COMMVERSION	LABEL	5.10	Communications Version
CPUPLDVERSION	LABEL	6.00	CPU PLD Version
CTRLPLDVERSION	LABEL	3.21	CTRL PLD Version
PSTATPLDVERSION	LABEL	0.00	PSTAT PLD Version
BOOSTERDCCALDATE	LABEL	10/1/2025	Booster DC Calibration Date
CURVE	TABLE	121
	Pt	T	Vf	Im	Vu	Sig	Ach	IERange	Over	Temp
	#	s	V vs. Ref.	A	V	V	V	#	bits	deg C
	0	0	2,36012E+000	1,79638E+001	0,00000E+000	1,76280E+000	-4,26051E-005	13	...........	-327,61
	2	2	2,44213E+000	1,79649E+001	0,00000E+000	1,76280E+000	-4,57884E-005	13	...........	-327,61
	4	4	2,46136E+000	1,79650E+001	0,00000E+000	1,76280E+000	-4,25051E-005	13	...........	-327,61
	6	6	2,46676E+000	1,79650E+001	0,00000E+000	1,76280E+000	-4,35051E-005	13	...........	-327,61
	8	8	2,46814E+000	1,79651E+001	0,00000E+000	1,76280E+000	-4,34384E-005	13	...........	-327,61
	10	10	2,46779E+000	1,79650E+001	0,00000E+000	1,76280E+000	-4,34551E-005	13	...........	-327,61
	12	12	2,46597E+000	1,79651E+001	0,00000E+000	1,76280E+000	-4,56551E-005	13	...........	-327,61
	14	14	2,46353E+000	1,79650E+001	0,00000E+000	1,76280E+000	-4,31884E-005	13	...........	-327,61
	16	16	2,46069E+000	1,79650E+001	0,00000E+000	1,76280E+000	-4,42218E-005	13	...........	-327,61
	18	18	2,45738E+000	1,79651E+001	0,00000E+000	1,76280E+000	-4,22551E-005	13	...........	-327,61
	20	20	2,45415E+000	1,79651E+001	0,00000E+000	1,76280E+000	-4,22218E-005	13	...........	-327,61
	22	22	2,45094E+000	1,79651E+001	0,00000E+000	1,76280E+000	-4,76051E-005	13	...........	-327,61
	24	24	2,44731E+000	1,79651E+001	0,00000E+000	1,76280E+000	-5,30718E-005	13	...........	-327,61
	26	26	2,44363E+000	1,79651E+001	0,00000E+000	1,76280E+000	-5,25218E-005	13	...........	-327,61
	28	28	2,44015E+000	1,79652E+001	0,00000E+000	1,76280E+000	-5,29384E-005	13	...........	-327,61
	30	30	2,43698E+000	1,79653E+001	0,00000E+000	1,76280E+000	-5,44384E-005	13	...........	-327,61
	32	32	2,43342E+000	1,79653E+001	0,00000E+000	1,76280E+000	-5,52718E-005	13	...........	-327,61
	34	34	2,42996E+000	1,79652E+001	0,00000E+000	1,76280E+000	-5,20718E-005	13	...........	-327,61
	36	36	2,42712E+000	1,79653E+001	0,00000E+000	1,76280E+000	-4,88051E-005	13	...........	-327,61
	38	38	2,42420E+000	1,79653E+001	0,00000E+000	1,76280E+000	-5,41051E-005	13	...........	-327,61
	40	40	2,42044E+000	1,79653E+001	0,00000E+000	1,76280E+000	-5,30384E-005	13	...........	-327,61
	42	42	2,41764E+000	1,79651E+001	0,00000E+000	1,76280E+000	-5,34218E-005	13	...........	-327,61
	44	44	2,41498E+000	1,79653E+001	0,00000E+000	1,76280E+000	-5,24218E-005	13	...........	-327,61
	46	46	2,41221E+000	1,79653E+001	0,00000E+000	1,76280E+000	-5,03718E-005	13	...........	-327,61
	48	48	2,40963E+000	1,79653E+001	0,00000E+000	1,76280E+000	-5,18218E-005	13	...........	-327,61
	50	50	2,40755E+000	1,79653E+001	0,00000E+000	1,76280E+000	-5,41718E-005	13	...........	-327,61
	52	52	2,40515E+000	1,79654E+001	0,00000E+000	1,76280E+000	-5,71384E-005	13	...........	-327,61
	54	54	2,40262E+000	1,79652E+001	0,00000E+000	1,76280E+000	-5,04218E-005	13	...........	-327,61
	56	56	2,40070E+000	1,79652E+001	0,00000E+000	1,76280E+000	-4,88884E-005	13	...........	-327,61
	58	58	2,39878E+000	1,79653E+001	0,00000E+000	1,76280E+000	-5,37051E-005	13	...........	-327,61
	60	60	2,39682E+000	1,79652E+001	0,00000E+000	1,76280E+000	-5,31551E-005	13	...........	-327,61
	62	62	2,39470E+000	1,79652E+001	0,00000E+000	1,76280E+000	-5,17718E-005	13	...........	-327,61
	64	64	2,39296E+000	1,79653E+001	0,00000E+000	1,76280E+000	-5,15884E-005	13	...........	-327,61
	66	66	2,39127E+000	1,79653E+001	0,00000E+000	1,76280E+000	-5,07718E-005	13	...........	-327,61
	68	68	2,38942E+000	1,79652E+001	0,00000E+000	1,76280E+000	-5,26551E-005	13	...........	-327,61
	70	70	2,38783E+000	1,79653E+001	0,00000E+000	1,76280E+000	-5,32551E-005	13	...........	-327,61
	72	72	2,38653E+000	1,79651E+001	0,00000E+000	1,76280E+000	-5,03551E-005	13	...........	-327,61
	74	74	2,38489E+000	1,79651E+001	0,00000E+000	1,76280E+000	-5,25384E-005	13	...........	-327,61
	76	76	2,38357E+000	1,79653E+001	0,00000E+000	1,76280E+000	-5,30051E-005	13	...........	-327,61
	78	78	2,38262E+000	1,79652E+001	0,00000E+000	1,76280E+000	-5,70051E-005	13	...........	-327,61
	80	80	2,38118E+000	1,79653E+001	0,00000E+000	1,76280E+000	-5,41718E-005	13	...........	-327,61
	82	82	2,37976E+000	1,79652E+001	0,00000E+000	1,76280E+000	-5,29884E-005	13	...........	-327,61
	84	84	2,37898E+000	1,79653E+001	0,00000E+000	1,76280E+000	-5,17051E-005	13	...........	-327,61
	86	86	2,37799E+000	1,79653E+001	0,00000E+000	1,76280E+000	-5,79551E-005	13	...........	-327,61
	88	88	2,37666E+000	1,79653E+001	0,00000E+000	1,76280E+000	-5,33551E-005	13	...........	-327,61
	90	90	2,37544E+000	1,79652E+001	0,00000E+000	1,76280E+000	-5,16384E-005	13	...........	-327,61
	92	92	2,37481E+000	1,79651E+001	0,00000E+000	1,76280E+000	-5,20551E-005	13	...........	-327,61
	94	94	2,37357E+000	1,79651E+001	0,00000E+000	1,76280E+000	-5,33718E-005	13	...........	-327,61
	96	96	2,37247E+000	1,79651E+001	0,00000E+000	1,76280E+000	-5,19384E-005	13	...........	-327,61
	98	98	2,37176E+000	1,79652E+001	0,00000E+000	1,76280E+000	-5,25718E-005	13	...........	-327,61
	100	100	2,37143E+000	1,79653E+001	0,00000E+000	1,76280E+000	-5,70718E-005	13	...........	-327,61
	102	102	2,37009E+000	1,79652E+001	0,00000E+000	1,76280E+000	-5,27884E-005	13	...........	-327,61
	104	104	2,36911E+000	1,79651E+001	0,00000E+000	1,76280E+000	-5,53051E-005	13	...........	-327,61
	106	106	2,36858E+000	1,79652E+001	0,00000E+000	1,76280E+000	-5,48218E-005	13	...........	-327,61
	108	108	2,36783E+000	1,79652E+001	0,00000E+000	1,76280E+000	-4,95551E-005	13	...........	-327,61
	110	110	2,36680E+000	1,79652E+001	0,00000E+000	1,76280E+000	-5,34051E-005	13	...........	-327,61
	112	112	2,36630E+000	1,79651E+001	0,00000E+000	1,76280E+000	-5,34884E-005	13	...........	-327,61
	114	114	2,36590E+000	1,79652E+001	0,00000E+000	1,76280E+000	-5,46884E-005	13	...........	-327,61
	116	116	2,36501E+000	1,79652E+001	0,00000E+000	1,76280E+000	-5,62218E-005	13	...........	-327,61
	118	118	2,36408E+000	1,79650E+001	0,00000E+000	1,76280E+000	-5,11218E-005	13	...........	-327,61
	120	120	2,36350E+000	1,79652E+001	0,00000E+000	1,76280E+000	-5,54384E-005	13	...........	-327,61

File: Est_pre_polarizacion.DTA
EXPLAIN
TAG	CHRONOP
TITLE	LABEL	Chronopotentiometry Scan	Test Identifier
DATE	LABEL	3/11/2025	Date
TIME	LABEL	18:20:03	Time
NOTES	NOTES	1	Notes...
	Estabilizacion previa a la curva de polarizacio
PSTAT	PSTAT	REF3000-46189	Potentiostat
IPRESTEP	QUANT	2,50000E+000	Pre-step Current(A)
TPRESTEP	QUANT	0,00000E+000	Pre-step Delay Time (s)
ISTEP1	QUANT	2,50000E+000	Step 1 Current (A)
TSTEP1	QUANT	3,00000E+002	Step 1 Time (s)
ISTEP2	QUANT	2,50000E+000	Step 2 Current (A)
TSTEP2	QUANT	0,00000E+000	Step 2 Time (s)
SAMPLETIME	QUANT	1,00000E+000	Sample Period (s)
DECIMATE	TOGGLE	F	Decimate
VLIMITLOWER	QUANT	-4,00000E+000	Lower Limit V (V)
VLIMITUPPER	QUANT	4,00000E+000	Upper Limit V (V)
EQDELAY	QUANT	0,00000E+000	Equil. Time (s)
SAMPLINGMODE	SELECTOR	1	Sampling Mode
AREA	QUANT	2,50000E+001	Sample Area (cm^2)
ELECTRODETYPE	SELECTOR	0	Electrode Type
STRIPPING	TOGGLE	F	Used for Stripping
SEQUENCER	TOGGLE	TRUE	Run as Sequence
PSTATMODEL	IQUANT	6	Pstat Model
PSTATSECTION	LABEL	REF30K-46189	Pstat Section
PSTATSERIALNO	LABEL	46189	Pstat Serial Number
CTRLMODE	IQUANT	0	Control Mode
ELECTROMETER	IQUANT	0	RE=0 or CS=1
IESTAB	IQUANT	0	I/E Stability
CASPEED	IQUANT	4	Control Amp Speed
CONVENTION	IQUANT	1	Current Convention
ICHRANGE	IQUANT	2	Ich Range
ICHRANGEMODE	TOGGLE	T	Ich Auto Range
ICHOFFSETENABLE	TOGGLE	F	Ich Offset Enable
ICHOFFSET	QUANT	0	Ich Offset (V)
ICHFILTER	IQUANT	3	Ich Filter
VCHRANGE	IQUANT	3	Vch Range
VCHRANGEMODE	TOGGLE	T	Vch Auto Range
VCHOFFSETENABLE	TOGGLE	F	Vch Offset Enable
VCHOFFSET	QUANT	0	Vch Offset (V)
VCHFILTER	IQUANT	3	Vch Filter
ACHRANGE	IQUANT	2	Ach Range
ACHOFFSETENABLE	TOGGLE	F	Ach Offset Enable
ACHOFFSET	QUANT	0	Ach Offset (V)
ACHFILTER	IQUANT	1	Ach Filter
IERANGELOWERLIMIT	IQUANT	13	I/E Range Lower Limit
IERANGEMODE	TOGGLE	F	I/E AutoRange
IERANGE	IQUANT	13	I/E Range
POSFEEDENABLE	TOGGLE	F	Positive Feedback IR Comp
POSFEEDRESISTANCE	QUANT	0	Positive Feedback Resistance (ohm)
ACHSELECT	IQUANT	4	Ach Select
SENSECABLEID	IQUANT	14	Sense Cable ID
PWRCABLEID	IQUANT	8	Power Cable ID
DCCALDATE	LABEL	10/1/2025	DC Calibration Date
ACCALDATE	LABEL	10/1/2025	AC Calibration Date
THERMOSELECT	IQUANT	1	Thermo Select
FRAMEWORKVERSION	LABEL	7.10.1	Framework Version
INSTRUMENTVERSION	LABEL	4.80	Instrument Version
COMMVERSION	LABEL	5.10	Communications Version
CPUPLDVERSION	LABEL	6.00	CPU PLD Version
CTRLPLDVERSION	LABEL	3.21	CTRL PLD Version
PSTATPLDVERSION	LABEL	0.00	PSTAT PLD Version
BOOSTERDCCALDATE	LABEL	10/1/2025	Booster DC Calibration Date
CURVE	TABLE	301
	Pt	T	Vf	Im	Vu	Sig	Ach	IERange	Over	Temp
	#	s	V vs. Ref.	A	V	V	V	#	bits	deg C
	0	0	1,83247E+000	2,46565E+000	0,00000E+000	2,44750E-001	-1,39051E-005	13	...........	-327,61
	3	3	1,83420E+000	2,46546E+000	0,00000E+000	2,44750E-001	-1,41884E-005	13	...........	-327,61
	6	6	1,83494E+000	2,46547E+000	0,00000E+000	2,44750E-001	-1,40551E-005	13	...........	-327,61
	9	9	1,83549E+000	2,46558E+000	0,00000E+000	2,44750E-001	-2,04384E-005	13	...........	-327,61
	12	12	1,83571E+000	2,46551E+000	0,00000E+000	2,44750E-001	-1,47551E-005	13	...........	-327,61
	15	15	1,83599E+000	2,46551E+000	0,00000E+000	2,44750E-001	-1,34718E-005	13	...........	-327,61
	18	18	1,83635E+000	2,46530E+000	0,00000E+000	2,44750E-001	-9,22176E-006	13	...........	-327,61
	21	21	1,83670E+000	2,46532E+000	0,00000E+000	2,44750E-001	-1,80051E-005	13	...........	-327,61
	24	24	1,83706E+000	2,46536E+000	0,00000E+000	2,44750E-001	-2,44884E-005	13	...........	-327,61
	27	27	1,83716E+000	2,46545E+000	0,00000E+000	2,44750E-001	-2,59718E-005	13	...........	-327,61
	30	30	1,83725E+000	2,46552E+000	0,00000E+000	2,44750E-001	-2,31718E-005	13	...........	-327,61
	33	33	1,83737E+000	2,46543E+000	0,00000E+000	2,44750E-001	-2,41551E-005	13	...........	-327,61
	36	36	1,83741E+000	2,46548E+000	0,00000E+000	2,44750E-001	-2,28884E-005	13	...........	-327,61
	39	39	1,83748E+000	2,46536E+000	0,00000E+000	2,44750E-001	-2,39718E-005	13	...........	-327,61
	42	42	1,83768E+000	2,46534E+000	0,00000E+000	2,44750E-001	-2,23718E-005	13	...........	-327,61
	45	45	1,83783E+000	2,46546E+000	0,00000E+000	2,44750E-001	-2,17218E-005	13	...........	-327,61
	48	48	1,83810E+000	2,46543E+000	0,00000E+000	2,44750E-001	-2,38051E-005	13	...........	-327,61
	51	51	1,83817E+000	2,46547E+000	0,00000E+000	2,44750E-001	-2,66218E-005	13	...........	-327,61
	54	54	1,83826E+000	2,46552E+000	0,00000E+000	2,44750E-001	-2,79718E-005	13	...........	-327,61
	57	57	1,83839E+000	2,46559E+000	0,00000E+000	2,44750E-001	-2,88051E-005	13	...........	-327,61
	60	60	1,83848E+000	2,46557E+000	0,00000E+000	2,44750E-001	-2,94384E-005	13	...........	-327,61
	63	63	1,83854E+000	2,46556E+000	0,00000E+000	2,44750E-001	-2,95218E-005	13	...........	-327,61
	66	66	1,83866E+000	2,46561E+000	0,00000E+000	2,44750E-001	-3,15718E-005	13	...........	-327,61
	69	69	1,83872E+000	2,46570E+000	0,00000E+000	2,44750E-001	-2,98384E-005	13	...........	-327,61
	72	72	1,83878E+000	2,46562E+000	0,00000E+000	2,44750E-001	-3,10718E-005	13	...........	-327,61
	75	75	1,83880E+000	2,46573E+000	0,00000E+000	2,44750E-001	-2,90051E-005	13	...........	-327,61
	78	78	1,83878E+000	2,46564E+000	0,00000E+000	2,44750E-001	-2,89218E-005	13	...........	-327,61
	81	81	1,83877E+000	2,46567E+000	0,00000E+000	2,44750E-001	-3,24884E-005	13	...........	-327,61
	84	84	1,83882E+000	2,46559E+000	0,00000E+000	2,44750E-001	-2,72718E-005	13	...........	-327,61
	87	87	1,83887E+000	2,46559E+000	0,00000E+000	2,44750E-001	-2,51551E-005	13	...........	-327,61
	90	90	1,83897E+000	2,46570E+000	0,00000E+000	2,44750E-001	-2,55551E-005	13	...........	-327,61
	93	93	1,83903E+000	2,46569E+000	0,00000E+000	2,44750E-001	-2,74884E-005	13	...........	-327,61
	96	96	1,83908E+000	2,46561E+000	0,00000E+000	2,44750E-001	-2,68384E-005	13	...........	-327,61
	99	99	1,83914E+000	2,46565E+000	0,00000E+000	2,44750E-001	-2,98051E-005	13	...........	-327,61
	102	102	1,83917E+000	2,46559E+000	0,00000E+000	2,44750E-001	-2,83384E-005	13	...........	-327,61
	105	105	1,83925E+000	2,46554E+000	0,00000E+000	2,44750E-001	-2,66384E-005	13	...........	-327,61
	108	108	1,83935E+000	2,46561E+000	0,00000E+000	2,44750E-001	-2,62051E-005	13	...........	-327,61
	111	111	1,83943E+000	2,46552E+000	0,00000E+000	2,44750E-001	-2,85884E-005	13	...........	-327,61
	114	114	1,83950E+000	2,46555E+000	0,00000E+000	2,44750E-001	-2,81051E-005	13	...........	-327,61
	117	117	1,83951E+000	2,46553E+000	0,00000E+000	2,44750E-001	-2,85051E-005	13	...........	-327,61
	120	120	1,83945E+000	2,46568E+000	0,00000E+000	2,44750E-001	-2,75218E-005	13	...........	-327,61
	123	123	1,83935E+000	2,46556E+000	0,00000E+000	2,44750E-001	-2,80384E-005	13	...........	-327,61
	126	126	1,83940E+000	2,46567E+000	0,00000E+000	2,44750E-001	-2,70051E-005	13	...........	-327,61
	129	129	1,83952E+000	2,46566E+000	0,00000E+000	2,44750E-001	-2,93384E-005	13	...........	-327,61
	132	132	1,83959E+000	2,46565E+000	0,00000E+000	2,44750E-001	-2,89551E-005	13	...........	-327,61
	135	135	1,83971E+000	2,46561E+000	0,00000E+000	2,44750E-001	-2,91218E-005	13	...........	-327,61
	138	138	1,83972E+000	2,46562E+000	0,00000E+000	2,44750E-001	-3,34884E-005	13	...........	-327,61
	141	141	1,83981E+000	2,46561E+000	0,00000E+000	2,44750E-001	-3,20051E-005	13	...........	-327,61
	144	144	1,83984E+000	2,46553E+000	0,00000E+000	2,44750E-001	-3,49384E-005	13	...........	-327,61
[...]
	192	192	1,84005E+000	2,46572E+000	0,00000E+000	2,44750E-001	-4,00551E-005	13	...........	-327,61
	195	195	1,84009E+000	2,46569E+000	0,00000E+000	2,44750E-001	-3,91884E-005	13	...........	-327,61
	198	198	1,84002E+000	2,46562E+000	0,00000E+000	2,44750E-001	-3,78051E-005	13	...........	-327,61
	201	201	1,84001E+000	2,46569E+000	0,00000E+000	2,44750E-001	-3,86884E-005	13	...........	-327,61
	204	204	1,83989E+000	2,46567E+000	0,00000E+000	2,44750E-001	-3,73384E-005	13	...........	-327,61
	207	207	1,83981E+000	2,46570E+000	0,00000E+000	2,44750E-001	-3,75384E-005	13	...........	-327,61
	210	210	1,83983E+000	2,46568E+000	0,00000E+000	2,44750E-001	-3,95718E-005	13	...........	-327,61
	213	213	1,83987E+000	2,46576E+000	0,00000E+000	2,44750E-001	-3,92051E-005	13	...........	-327,61
	216	216	1,83995E+000	2,46570E+000	0,00000E+000	2,44750E-001	-3,88051E-005	13	...........	-327,61
	219	219	1,83996E+000	2,46569E+000	0,00000E+000	2,44750E-001	-3,96384E-005	13	...........	-327,61
	222	222	1,84005E+000	2,46578E+000	0,00000E+000	2,44750E-001	-4,04718E-005	13	...........	-327,61
	225	225	1,84014E+000	2,46573E+000	0,00000E+000	2,44750E-001	-4,13718E-005	13	...........	-327,61
	228	228	1,84018E+000	2,46574E+000	0,00000E+000	2,44750E-001	-4,26051E-005	13	...........	-327,61
	231	231	1,84026E+000	2,46572E+000	0,00000E+000	2,44750E-001	-4,45718E-005	13	...........	-327,61
	234	234	1,84029E+000	2,46573E+000	0,00000E+000	2,44750E-001	-4,51051E-005	13	...........	-327,61
	237	237	1,84031E+000	2,46581E+000	0,00000E+000	2,44750E-001	-4,63884E-005	13	...........	-327,61
	240	240	1,84031E+000	2,46575E+000	0,00000E+000	2,44750E-001	-4,45884E-005	13	...........	-327,61
	243	243	1,84029E+000	2,46582E+000	0,00000E+000	2,44750E-001	-4,33551E-005	13	...........	-327,61
	246	246	1,84027E+000	2,46586E+000	0,00000E+000	2,44750E-001	-4,42384E-005	13	...........	-327,61
	249	249	1,84018E+000	2,46584E+000	0,00000E+000	2,44750E-001	-4,33384E-005	13	...........	-327,61
	252	252	1,84022E+000	2,46587E+000	0,00000E+000	2,44750E-001	-4,49218E-005	13	...........	-327,61
	255	255	1,84028E+000	2,46588E+000	0,00000E+000	2,44750E-001	-4,61384E-005	13	...........	-327,61
	258	258	1,84032E+000	2,46582E+000	0,00000E+000	2,44750E-001	-4,55384E-005	13	...........	-327,61
	261	261	1,84040E+000	2,46584E+000	0,00000E+000	2,44750E-001	-4,65051E-005	13	...........	-327,61
	264	264	1,84047E+000	2,46578E+000	0,00000E+000	2,44750E-001	-4,29051E-005	13	...........	-327,61
	267	267	1,84051E+000	2,46588E+000	0,00000E+000	2,44750E-001	-4,22384E-005	13	...........	-327,61
	270	270	1,84058E+000	2,46584E+000	0,00000E+000	2,44750E-001	-4,08718E-005	13	...........	-327,61
	273	273	1,84065E+000	2,46588E+000	0,00000E+000	2,44750E-001	-4,25051E-005	13	...........	-327,61
	276	276	1,84070E+000	2,46592E+000	0,00000E+000	2,44750E-001	-4,24551E-005	13	...........	-327,61
	279	279	1,84080E+000	2,46582E+000	0,00000E+000	2,44750E-001	-4,27551E-005	13	...........	-327,61
	282	282	1,84083E+000	2,46588E+000	0,00000E+000	2,44750E-001	-4,40218E-005	13	...........	-327,61
	285	285	1,84085E+000	2,46587E+000	0,00000E+000	2,44750E-001	-4,21218E-005	13	...........	-327,61
	288	288	1,84072E+000	2,46586E+000	0,00000E+000	2,44750E-001	-4,41051E-005	13	...........	-327,61
	291	291	1,84063E+000	2,46592E+000	0,00000E+000	2,44750E-001	-4,28218E-005	13	...........	-327,61
	294	294	1,84062E+000	2,46584E+000	0,00000E+000	2,44750E-001	-4,56218E-005	13	...........	-327,61
	297	297	1,84063E+000	2,46594E+000	0,00000E+000	2,44750E-001	-4,36551E-005	13	...........	-327,61
	300	300	1,84070E+000	2,46583E+000	0,00000E+000	2,44750E-001	-4,27551E-005	13	...........	-327,61